File: WSH6_measured.csv
Displacement (mm),Force (kN)
-0.97101,-149.018
2.06916,240.142
4.01972,288.875
5.68443,346.546
7.28259,375.288
9.49339,403.957
9.40124,363.902
8.07357,319.545
7.36365,277.34
5.02998,195.265
4.63151,155.248
3.29359,106.441
0.29608,2.18807
-2.06916,-226.791
-2.77396,-266.771
-3.46851,-302.301
-5.74075,-357.672
-6.06243,-364.311
-8.58467,-395.167
-8.45156,-337.31
-5.10165,-213.0674
-3.05894,-124.28
-1.99151,-59.85896
-0.00939,135.778
2.56405,188.887
4.24925,255.459
6.20492,306.417
9.42172,372.803
10.40212,399.394
8.42084,337.31
7.34829,270.664
4.62639,153.022
3.27311,97.53967
1.91984,42.05685
0.89337,-4.5621
-0.12799,-48.95579
-0.26622,-109.0379
-1.03245,-175.721
-1.09388,-202.425
-4.14259,-328.93
-7.32355,-379.739
-8.58979,-397.392
-8.11452,-323.996
-9.8859,-294.844
-5.39774,-208.58
-1.72103,-75.47299
-0.9548,-8.78948
-0.82681,46.8421
-0.36178,115.788
1.91557,173.385
3.56493,224.38
6.1998,304.192
9.7434,379.441
11.39276,430.437
13.32796,472.493
16.16676,507.763
19.58749,529.606
23.00821,551.45
25.78046,557.791
25.70367,524.412
25.61152,484.357
22.73176,431.286
23.02272,424.573
16.98248,329.593
12.48408,238.878
10.17089,165.705
7.89353,108.108
4.88066,-2.82032
3.24154,-49.36489
1.31146,-89.19648
0.90787,-131.439
-2.44716,-257.907
-3.80043,-313.3902
-7.30307,-370.838
-8.29883,-404.105
-9.60091,-437.336
-11.81683,-468.229
-15.2478,-494.523
-18.40316,-534.206
-21.81877,-553.824
-25.8419,-571.143
-26.31631,-510.986
-32.15177,-516.955
-21.44504,-391.38
-15.0524,-276.41
-14.43976,-276.484
-7.40376,-148.237
-4.79448,-79.55161
-3.40025,-6.26669
-0.78585,64.6442
0.25598,117.939
2.21166,168.897
4.15197,213.179
10.85605,330.337
13.73069,381.183
17.8255,429.656
21.62422,482.616
23.85038,517.959
25.41271,531.125
25.33591,497.746
21.11312,393.642
18.23848,342.7959
14.41928,280.935
12.47384,234.427
9.90552,183.544
7.32184,125.985
5.63153,57.1874
3.03249,-7.0477
-0.26622,-109.0379
-1.66045,-182.323
-5.46429,-237.5081
-8.96693,-294.956
-11.22893,-345.877
-14.71109,-394.423
-18.18302,-438.519
-21.0423,-482.69
-26.38799,-542.14
-24.70279,-475.568
-22.39984,-406.845
-18.56016,-336.083
-10.6052,-207.947
-8.3176,-145.9
-5.41736,-83.92776
-4.37553,-30.63301
0.2611,120.164
2.85502,182.174
5.43869,239.733
10.82022,314.76
14.97134,387.71
18.80078,454.022
21.36398,502.68
24.80519,533.425
29.45632,557.345
33.78065,572.401
37.77818,578.5932
37.60412,502.934
37.30292,505.197
35.34724,454.239
31.8446,396.791
28.37267,352.695
24.89563,306.3735
22.03123,259.978
18.54907,211.431
15.70514,173.936
13.4585,129.691
10.60434,87.74603
8.9857,50.10251
6.14178,12.60776
4.81922,-29.52348
1.26027,-111.449
-2.31917,-202.2758
-4.28508,-257.684
-8.05309,-297.293
-12.51565,-372.431
-16.91166,-418.641
-19.75558,-456.136
-24.80519,-520.073
-31.02376,-559.384
-35.34297,-572.215
-38.1357,-587.457
-39.23811,-533.902
-37.26708,-476.268
-33.75932,-416.595
-29.65427,-363.672
-25.22755,-304.111
-21.40835,-242.25
-18.24274,-198.117
-14.1377,-145.194
-10.93626,-85.48358
-8.07698,-41.31303
-5.23306,-3.81828
-1.03074,91.38455
1.87462,155.582
6.63326,226.233
15.77255,336.418
19.55592,382.702
27.10217,466.369
30.87529,508.203
44.82357,577.738
38.32427,549.59
35.65868,456.427
32.77892,403.355
29.31211,361.484
27.08084,323.915
24.20619,273.069
21.04571,231.161
16.95091,182.689
15.62835,140.5573
7.70922,27.99865
6.37643,-18.58312
4.72195,-71.80348
1.54099,-122.613
-22.62425,-371.204
-22.10376,-411.333
-17.74871,-382.925
-24.33504,-448.902
-26.54072,-475.345
-29.3744,-508.389
-33.12193,-539.096
-36.53242,-556.489
-39.61099,-562.793
-38.23212,-496.184
-34.709,-429.8353
-30.9154,-379.101
-27.10643,-321.69
-23.30771,-268.73
-18.89122,-213.619
-15.40394,-162.847
-12.21786,-109.813
-8.4089,-52.40216
0.5623,117.902
5.6631,204.092
10.10518,270.329
15.17527,343.168
29.31297,495.037
33.98458,527.858
39.57003,558.343
48.82622,586.1554
50.97047,585.895
51.21024,556.929
51.1488,530.226
50.17864,508.085
48.5856,481.568
46.98232,450.6
45.0676,417.444
43.47456,390.927
40.95744,362.296
37.49063,320.426
35.59127,293.9455
33.38047,265.2774
29.90855,221.181
27.06462,183.686
23.93486,155.13
21.39214,115.373
18.57381,89.00433
15.42357,51.54676
11.67604,20.83937
8.8526,-7.75433
6.64179,-36.42241
3.14939,-89.41963
0.87203,-147.016
-7.66997,-263.951
-13.04126,-334.5271
-27.65849,-428.465
-24.93744,-444.377
-28.40425,-486.248
-36.50682,-545.363
-40.83627,-562.644
-45.17085,-582.151
-50.0771,-583.781
-51.52679,-547.991
-50.80153,-499.1098
-47.26817,-428.31
-42.23904,-373.274
-38.43008,-315.8634
-33.39071,-256.376
-29.91879,-212.2802
-25.51254,-161.62
-20.79485,-108.771
-17.01149,-62.48713
-12.63596,-25.17833
-7.95411,12.09328
-3.86442,58.34033
4.37126,175.312
8.53262,252.713
14.79215,309.826
20.43392,364.788
25.72841,401.985
32.60571,461.249
39.14084,504.974
45.33382,533.1582
49.67351,554.89
51.83312,561.3056
50.81688,519.137
47.3296,468.3652
45.37392,417.407
42.82608,375.425
38.44543,335.891
35.58103,289.495
31.81303,249.887
29.59711,218.993
27.99383,188.025
25.46646,154.944
21.99966,113.073
17.94581,82.40292
11.0378,9.78744
6.30987,-47.51154
-5.13237,-226.419
-8.02749,-286.166
-14.87407,-332.0787
-23.33416,-413.409
-29.54762,-450.495
-33.91291,-483.353
-37.9514,-507.348
-42.29109,-529.08
-50.95511,-565.868
-50.83224,-512.461
-44.41912,-388.59
-39.70144,-335.742
-31.78231,-223.183
-27.0595,-168.11
-16.70517,-62.52432
-12.01308,-20.80218
-7.94899,14.31855
-1.95482,89.27087
3.74326,168.711
9.79886,270.366
16.36983,329.667
22.92545,382.293
29.45546,423.792
35.72012,483.13
41.92845,517.99
48.13679,552.851
53.07376,567.833
58.31194,580.552
64.1474,586.521
64.6986,559.744
64.31037,524.177
63.01341,493.172
61.08333,453.34
57.30509,409.281
54.75725,367.299
50.66756,321.052
46.57276,272.579
43.12131,237.384
36.17746,149.1918
31.16369,100.831
27.10985,70.16087
21.172,19.68645
15.58142,-13.02306
11.23149,-39.20554
6.25356,-71.98943
2.16899,-116.011
-1.34389,-177.909
-8.27238,-259.426
-13.01566,-323.401
-19.84176,-360.412
-24.23777,-406.622
-32.64154,-463.475
-44.77749,-544.359
-52.47648,-561.2312
-56.49449,-576.325
-61.4161,-584.631
-64.47932,-584.259
-64.06548,-537.565
-63.01341,-479.82
-59.52101,-426.823
-55.10453,-371.712
-48.13508,-272.393
-46.27155,-261.49
-39.99667,-197.701
-34.66634,-144.927
-28.06977,-74.49983
-21.53975,-33.00084
-17.20006,-11.26888
-11.00196,19.14098
-5.38067,65.20207
0.59302,131.253
4.67758,175.275
9.10943,237.062
14.1232,285.423
21.90921,340.124
28.18922,406.138
35.64844,451.976
41.54533,484.649
47.72807,508.383
54.23249,538.755
59.16946,553.737
65.32149,564.12
63.35045,506.486
61.05774,442.214
56.94245,384.84
53.46541,338.519
49.38596,296.722
41.19635,199.7778
36.50426,158.056
31.79682,109.658
27.41617,70.12369
21.19247,28.5875
15.9031,-6.38446
10.31253,-39.09397
3.80811,-69.46664
1.53587,-124.838
-6.40885,-248.523
-15.48671,-332.0043
-27.31122,-410.701
-31.34459,-432.47
-36.62884,-465.216
-43.75102,-497.74
-48.07535,-512.796
-53.02256,-532.228
-57.04058,-547.322
-63.81036,-559.855
-62.7634,-504.335
-60.80261,-451.152
-51.3058,-318.752
-41.86019,-208.604
-36.20818,-149.1918
-31.81217,-102.982
-27.43665,-65.67316
-22.75991,-30.62681
-14.70853,6.2357
-6.93787,54.26171
-2.20995,111.561
3.78422,186.513
14.44488,292.061
18.1924,322.769
25.0697,382.032
30.04251,412.591
37.48637,451.753
46.79375,501.819
61.94172,560.078
71.18254,581.215
75.16472,580.732
77.61529,580.4342
77.23729,549.318
77.1605,515.939
76.1545,478.221
72.37626,434.162
70.45642,398.781
67.93417,367.925
65.08513,328.205
60.70448,288.671
55.97144,229.146
50.95255,178.56
47.18454,138.952
43.11534,101.606
39.04613,64.2599
25.41953,1.36367
17.99615,-28.89743
10.55229,-68.05959
4.28252,-129.623
-2.00261,-197.862
-7.97629,-263.914
-18.93815,-367.199
-49.59672,-508.16
-59.18995,-549.287
-67.82325,-572.723
-73.34215,-574.279
-77.33968,-580.471
-78.1409,-529.179
-76.78762,-473.696
-73.92834,-429.525
-69.84377,-385.5036
-64.78905,-319.341
-59.1268,-255.478
-53.80159,-204.929
-49.40559,-158.719
-43.16142,-108.282
-36.92748,-62.29497
-25.46561,-8.03946
-18.35879,17.8083
-3.40452,125.061
6.60254,212.881
15.4048,309.752
24.10978,364.342
31.8446,396.791
47.66152,479.454
56.32554,516.242
64.64741,537.491
70.20215,554.6236
74.20992,565.266
77.57945,564.857
75.5265,471.619
71.11002,416.509
66.33601,339.182
60.36745,275.356
50.00287,165.32
44.99422,119.185
31.62275,33.9988
23.24457,-11.72757
15.79559,-53.11499
-4.17757,-210.9537
-12.94911,-294.472
-20.11224,-344.798
-34.081,-423.234
-39.96766,-451.456
-47.08983,-483.979
-52.65993,-507.788
-58.53635,-531.559
-65.91877,-544.018
-70.83015,-547.873
-75.75176,-556.179
-77.27825,-553.768
-77.79362,-511.414
-75.21506,-456.08
-70.47178,-392.105
-66.06553,-341.445
-61.3376,-284.146
-55.6856,-224.733
-50.96791,-171.885
-44.99934,-108.059
-40.02141,-75.27464
-31.97515,-40.6374
-26.39481,-12.37841
-18.94583,29.009
-9.01557,83.45047
-0.60155,144.754
5.97966,208.505
20.05081,331.446
26.89226,375.134
47.932,463.8403
56.60115,502.8537
62.46732,522.174
68.93591,536.97
76.94633,556.031
81.86282,562.111
87.07028,561.479
91.34854,556.508
94.70271,549.423
94.29913,507.18
93.61481,476.101
92.90489,433.895
89.73417,387.537
86.5788,347.854
83.71953,303.683
80.56928,266.226
77.10248,224.355
72.40527,180.407
68.3463,147.512
61.14733,81.60951
54.92875,42.2986
46.56593,3.24802
39.45911,-22.59975
32.66373,-46.25944
26.19515,-61.05527
19.70097,-86.97742
12.27759,-117.239
5.45661,-152.025
1.07084,-193.784
-8.24678,-248.2997
-18.218,-320.543
-23.22665,-366.679
-29.11843,-397.126
-37.48637,-438.402
-44.3227,-479.863
-53.90569,-516.54
-63.45796,-539.865
-72.07591,-556.626
-79.12129,-555.77
-83.39955,-550.799
-87.99437,-550.241
-88.45854,-485.634
-88.64199,-432.191
-89.11641,-372.034
-89.6113,-320.779
-89.78963,-265.11
-90.59084,-213.817
-90.81525,-178.176
-90.73334,-142.572